success,timeout,failed_images,failed_audio,failed_video,trial_type,trial_index,time_elapsed,internal_node_id,worker_id,rt,stimulus,response,trial_category,speedy,choices,correct,question_order
TRUE,FALSE,[],[],[],preload,0,263,0.0-0.0,d8mmm1qn,,,,,,,,
,,,,,html-keyboard-response,1,12379,0.0-1.0,d8mmm1qn,12092,Welcome to the experiment. Press any key to begin., ,,,,,
TRUE,,,,,fullscreen,2,16865,0.0-2.0,d8mmm1qn,,,,,,,,
,,,,,image-button-response,3,19415,0.0-3.0,d8mmm1qn,2426,assets/consent/kc_lab_consent_prolific.png,0,,,,,
,,,,,html-button-response,4,22267,0.0-4.0,d8mmm1qn,2849,"<p>In each trial of this task, you will see three images: one target item on top, and two choices beneath the target item.</p> <p>For each trial, <strong>please select the item that is most similar to the target item USING ANY CRITERIA.</strong></p> <p>Press k to select the left item and l to select the right item.</p> <p>There will be 230 trials.</p> <p>Click 'Continue' to begin the test.</p>",0,,,,,
,,,,,html-keyboard-response,5,24799,0.0-5.0-0.0,d8mmm1qn,null,+,null,,,,,
,,,,,html-keyboard-response,6,26658,0.0-5.0-1.0,d8mmm1qn,1856,assets/stimuli/fdfow.png,0,random,FALSE,"[""assets/stimuli/fnfyw.png"",""assets/stimuli/fdmyb.png""]",,
,,,,,html-keyboard-response,7,27166,0.0-5.0-0.1,d8mmm1qn,null,+,null,,,,,
,,,,,html-keyboard-response,8,27782,0.0-5.0-1.1,d8mmm1qn,614,assets/stimuli/fdmob.png,0,random,TRUE,"[""assets/stimuli/fnmob.png"",""assets/stimuli/pnhns.png""]",,
,,,,,html-keyboard-response,9,29494,0.0-5.0-3.1-0.1,d8mmm1qn,1710,<p><strong>You're going too fast.</strong></p> Please slow down and assess each triplet. <p>Press 'y' to continue.</p>,y,,,,,
,,,,,html-keyboard-response,10,29999,0.0-5.0-0.2,d8mmm1qn,null,+,null,,,,,
,,,,,html-keyboard-response,11,31206,0.0-5.0-1.2,d8mmm1qn,1203,assets/stimuli/fdfow.png,0,validation,FALSE,"[""assets/stimuli/fnmyb.png"",""assets/stimuli/pdhos.png""]",,
,,,,,html-keyboard-response,12,31710,0.0-5.0-0.3,d8mmm1qn,null,+,null,,,,,
,,,,,html-keyboard-response,13,33166,0.0-5.0-1.3,d8mmm1qn,1454,assets/stimuli/pncob.png,0,random,FALSE,"[""assets/stimuli/pncns.png"",""assets/stimuli/pdhob.png""]",,
,,,,,html-keyboard-response,14,33675,0.0-5.0-0.4,d8mmm1qn,null,+,null,,,,,
,,,,,html-keyboard-response,15,35887,0.0-5.0-1.4,d8mmm1qn,2211,assets/stimuli/pdhos.png,0,random,FALSE,"[""assets/stimuli/fnfyw.png"",""assets/stimuli/fnmyb.png""]",,
,,,,,html-keyboard-response,16,36390,0.0-5.0-0.5,d8mmm1qn,null,+,null,,,,,
,,,,,html-keyboard-response,17,37571,0.0-5.0-1.5,d8mmm1qn,1180,assets/stimuli/pnhns.png,1,random,FALSE,"[""assets/stimuli/fdmob.png"",""assets/stimuli/pdhob.png""]",,
,,,,,html-keyboard-response,18,38087,0.0-5.0-0.6,d8mmm1qn,null,+,null,,,,,
,,,,,html-keyboard-response,19,39283,0.0-5.0-1.6,d8mmm1qn,1195,assets/stimuli/fnfyb.png,0,random,FALSE,"[""assets/stimuli/fnfow.png"",""assets/stimuli/pncns.png""]",,
,,,,,html-keyboard-response,20,39800,0.0-5.0-0.7,d8mmm1qn,null,+,null,,,,,
,,,,,html-keyboard-response,21,41054,0.0-5.0-1.7,d8mmm1qn,1252,assets/stimuli/pdcob.png,0,random,FALSE,"[""assets/stimuli/pncob.png"",""assets/stimuli/fdmob.png""]",,
,,,,,html-keyboard-response,22,41567,0.0-5.0-0.8,d8mmm1qn,null,+,null,,,,,
,,,,,html-keyboard-response,23,43462,0.0-5.0-1.8,d8mmm1qn,1894,assets/stimuli/pdcns.png,1,random,FALSE,"[""assets/stimuli/fnmob.png"",""assets/stimuli/fnmyb.png""]",,
,,,,,html-keyboard-response,24,43978,0.0-5.0-0.9,d8mmm1qn,null,+,null,,,,,
,,,,,html-keyboard-response,25,46449,0.0-5.0-1.9,d8mmm1qn,2470,assets/stimuli/fnmob.png,1,random,FALSE,"[""assets/stimuli/pdcns.png"",""assets/stimuli/pdcnb.png""]",,
,,,,,html-keyboard-response,26,46957,0.0-5.0-0.10,d8mmm1qn,null,+,null,,,,,
,,,,,html-keyboard-response,27,49013,0.0-5.0-1.10,d8mmm1qn,2054,assets/stimuli/fnmyb.png,0,random,FALSE,"[""assets/stimuli/fnmow.png"",""assets/stimuli/fnfob.png""]",,
,,,,,html-keyboard-response,28,49523,0.0-5.0-0.11,d8mmm1qn,null,+,null,,,,,
,,,,,html-keyboard-response,29,50750,0.0-5.0-1.11,d8mmm1qn,1224,assets/stimuli/fdmow.png,1,random,FALSE,"[""assets/stimuli/pdhob.png"",""assets/stimuli/fdfow.png""]",,
,,,,,html-keyboard-response,30,51265,0.0-5.0-0.12,d8mmm1qn,null,+,null,,,,,
,,,,,html-keyboard-response,31,52422,0.0-5.0-1.12,d8mmm1qn,1156,assets/stimuli/pncns.png,1,random,FALSE,"[""assets/stimuli/fdmyw.png"",""assets/stimuli/pnhob.png""]",,
,,,,,html-keyboard-response,32,52931,0.0-5.0-0.13,d8mmm1qn,null,+,null,,,,,
,,,,,html-keyboard-response,33,55469,0.0-5.0-1.13,d8mmm1qn,2536,assets/stimuli/pncob.png,0,random,FALSE,"[""assets/stimuli/fnfyb.png"",""assets/stimuli/fdfyb.png""]",,
,,,,,html-keyboard-response,34,55983,0.0-5.0-0.14,d8mmm1qn,null,+,null,,,,,
,,,,,html-keyboard-response,35,57385,0.0-5.0-1.14,d8mmm1qn,1400,assets/stimuli/fdmow.png,0,random,FALSE,"[""assets/stimuli/fnfob.png"",""assets/stimuli/pnhns.png""]",,
,,,,,html-keyboard-response,36,57895,0.0-5.0-0.15,d8mmm1qn,null,+,null,,,,,
,,,,,html-keyboard-response,37,59385,0.0-5.0-1.15,d8mmm1qn,1489,assets/stimuli/fnfob.png,1,random,FALSE,"[""assets/stimuli/fnfyb.png"",""assets/stimuli/fdfow.png""]",,
,,,,,html-keyboard-response,38,59887,0.0-5.0-0.16,d8mmm1qn,null,+,null,,,,,
,,,,,html-keyboard-response,39,61528,0.0-5.0-1.16,d8mmm1qn,1640,assets/stimuli/pnhns.png,0,random,FALSE,"[""assets/stimuli/pdcnb.png"",""assets/stimuli/pncob.png""]",,
,,,,,html-keyboard-response,40,62039,0.0-5.0-0.17,d8mmm1qn,null,+,null,,,,,
,,,,,html-keyboard-response,41,64192,0.0-5.0-1.17,d8mmm1qn,2151,assets/stimuli/pncob.png,0,random,FALSE,"[""assets/stimuli/fnfow.png"",""assets/stimuli/fdmow.png""]",,
,,,,,html-keyboard-response,42,64695,0.0-5.0-0.18,d8mmm1qn,null,+,null,,,,,
,,,,,html-keyboard-response,43,66285,0.0-5.0-1.18,d8mmm1qn,1588,assets/stimuli/pncnb.png,1,random,FALSE,"[""assets/stimuli/fnmow.png"",""assets/stimuli/pdcnb.png""]",,
,,,,,html-keyboard-response,44,66786,0.0-5.0-0.19,d8mmm1qn,null,+,null,,,,,
,,,,,html-keyboard-response,45,68373,0.0-5.0-1.19,d8mmm1qn,1585,assets/stimuli/fnmow.png,0,random,FALSE,"[""assets/stimuli/fdmyw.png"",""assets/stimuli/pdhnb.png""]",,
,,,,,html-keyboard-response,46,68890,0.0-5.0-0.20,d8mmm1qn,null,+,null,,,,,
,,,,,html-keyboard-response,47,70495,0.0-5.0-1.20,d8mmm1qn,1603,assets/stimuli/pnhob.png,0,random,FALSE,"[""assets/stimuli/pnhns.png"",""assets/stimuli/fnfyb.png""]",,
,,,,,html-keyboard-response,48,71012,0.0-5.0-0.21,d8mmm1qn,null,+,null,,,,,
,,,,,html-keyboard-response,49,72699,0.0-5.0-1.21,d8mmm1qn,1686,assets/stimuli/fdfyw.png,1,random,FALSE,"[""assets/stimuli/pnhns.png"",""assets/stimuli/fnmyw.png""]",,
,,,,,html-keyboard-response,50,73216,0.0-5.0-0.22,d8mmm1qn,null,+,null,,,,,
,,,,,html-keyboard-response,51,74829,0.0-5.0-1.22,d8mmm1qn,1612,assets/stimuli/pnhns.png,1,random,FALSE,"[""assets/stimuli/fdfyb.png"",""assets/stimuli/fnfyw.png""]",,
,,,,,html-keyboard-response,52,75333,0.0-5.0-0.23,d8mmm1qn,null,+,null,,,,,
,,,,,html-keyboard-response,53,77077,0.0-5.0-1.23,d8mmm1qn,1743,assets/stimuli/fnfob.png,0,random,FALSE,"[""assets/stimuli/fnmyb.png"",""assets/stimuli/pdcos.png""]",,
,,,,,html-keyboard-response,54,77580,0.0-5.0-0.24,d8mmm1qn,null,+,null,,,,,
,,,,,html-keyboard-response,55,79146,0.0-5.0-1.24,d8mmm1qn,1565,assets/stimuli/pncob.png,1,random,FALSE,"[""assets/stimuli/fdmob.png"",""assets/stimuli/pncnb.png""]",,
,,,,,html-keyboard-response,56,79649,0.0-5.0-0.25,d8mmm1qn,null,+,null,,,,,
,,,,,html-keyboard-response,57,81130,0.0-5.0-1.25,d8mmm1qn,1479,assets/stimuli/fdmow.png,1,random,FALSE,"[""assets/stimuli/pnhnb.png"",""assets/stimuli/fnfow.png""]",,
,,,,,html-keyboard-response,58,81638,0.0-5.0-0.26,d8mmm1qn,null,+,null,,,,,
,,,,,html-keyboard-response,59,83121,0.0-5.0-1.26,d8mmm1qn,1481,assets/stimuli/pnhob.png,0,check,FALSE,"[""assets/stimuli/pnhob.png"",""assets/stimuli/fnmyw.png""]",TRUE,
,,,,,html-keyboard-response,60,83629,0.0-5.0-0.27,d8mmm1qn,null,+,null,,,,,
,,,,,html-keyboard-response,61,85306,0.0-5.0-1.27,d8mmm1qn,1676,assets/stimuli/fdfyw.png,1,random,FALSE,"[""assets/stimuli/pncnb.png"",""assets/stimuli/fdmow.png""]",,
,,,,,html-keyboard-response,62,85812,0.0-5.0-0.28,d8mmm1qn,null,+,null,,,,,
,,,,,html-keyboard-response,63,87520,0.0-5.0-1.28,d8mmm1qn,1705,assets/stimuli/pdcnb.png,1,random,FALSE,"[""assets/stimuli/fdmow.png"",""assets/stimuli/pncns.png""]",,
,,,,,html-keyboard-response,64,88023,0.0-5.0-0.29,d8mmm1qn,null,+,null,,,,,
,,,,,html-keyboard-response,65,89655,0.0-5.0-1.29,d8mmm1qn,1629,assets/stimuli/pnhos.png,0,check,FALSE,"[""assets/stimuli/pnhos.png"",""assets/stimuli/fdfyb.png""]",TRUE,
,,,,,html-keyboard-response,66,90167,0.0-5.0-0.30,d8mmm1qn,null,+,null,,,,,
,,,,,html-keyboard-response,67,92098,0.0-5.0-1.30,d8mmm1qn,1930,assets/stimuli/fdfob.png,1,random,FALSE,"[""assets/stimuli/fnfyw.png"",""assets/stimuli/fdfyw.png""]",,
,,,,,html-keyboard-response,68,92610,0.0-5.0-0.31,d8mmm1qn,null,+,null,,,,,
,,,,,html-keyboard-response,69,94340,0.0-5.0-1.31,d8mmm1qn,1727,assets/stimuli/fnfyw.png,1,random,FALSE,"[""assets/stimuli/pncob.png"",""assets/stimuli/pdhnb.png""]",,
,,,,,html-keyboard-response,70,94851,0.0-5.0-0.32,d8mmm1qn,null,+,null,,,,,
,,,,,html-keyboard-response,71,96519,0.0-5.0-1.32,d8mmm1qn,1666,assets/stimuli/pncob.png,1,random,FALSE,"[""assets/stimuli/fdfyw.png"",""assets/stimuli/pncnb.png""]",,
,,,,,html-keyboard-response,72,97030,0.0-5.0-0.33,d8mmm1qn,null,+,null,,,,,
,,,,,html-keyboard-response,73,98479,0.0-5.0-1.33,d8mmm1qn,1446,assets/stimuli/fdmow.png,0,validation,FALSE,"[""assets/stimuli/fnfyw.png"",""assets/stimuli/pncnb.png""]",,
,,,,,html-keyboard-response,74,98993,0.0-5.0-0.34,d8mmm1qn,null,+,null,,,,,
,,,,,html-keyboard-response,75,100519,0.0-5.0-1.34,d8mmm1qn,1524,assets/stimuli/pdcnb.png,1,validation,FALSE,"[""assets/stimuli/pnhnb.png"",""assets/stimuli/pncos.png""]",,
,,,,,html-keyboard-response,76,101034,0.0-5.0-0.35,d8mmm1qn,null,+,null,,,,,
,,,,,html-keyboard-response,77,102699,0.0-5.0-1.35,d8mmm1qn,1663,assets/stimuli/fdmow.png,1,random,FALSE,"[""assets/stimuli/pdhos.png"",""assets/stimuli/fnfyb.png""]",,
,,,,,html-keyboard-response,78,103213,0.0-5.0-0.36,d8mmm1qn,null,+,null,,,,,
,,,,,html-keyboard-response,79,104894,0.0-5.0-1.36,d8mmm1qn,1679,assets/stimuli/fnmyw.png,1,random,FALSE,"[""assets/stimuli/pnhob.png"",""assets/stimuli/fnmow.png""]",,
,,,,,html-keyboard-response,80,105411,0.0-5.0-0.37,d8mmm1qn,null,+,null,,,,,
,,,,,html-keyboard-response,81,107268,0.0-5.0-1.37,d8mmm1qn,1856,assets/stimuli/fdmyw.png,1,random,FALSE,"[""assets/stimuli/pdcns.png"",""assets/stimuli/fdfow.png""]",,
,,,,,html-keyboard-response,82,107778,0.0-5.0-0.38,d8mmm1qn,null,+,null,,,,,
,,,,,html-keyboard-response,83,109874,0.0-5.0-1.38,d8mmm1qn,2094,assets/stimuli/pdcos.png,0,random,FALSE,"[""assets/stimuli/pdhos.png"",""assets/stimuli/pnhob.png""]",,
,,,,,html-keyboard-response,84,110382,0.0-5.0-0.39,d8mmm1qn,null,+,null,,,,,
,,,,,html-keyboard-response,85,111693,0.0-5.0-1.39,d8mmm1qn,1307,assets/stimuli/pdhnb.png,0,validation,FALSE,"[""assets/stimuli/pdcnb.png"",""assets/stimuli/fdmob.png""]",,
,,,,,html-keyboard-response,86,112203,0.0-5.0-0.40,d8mmm1qn,null,+,null,,,,,
,,,,,html-keyboard-response,87,114077,0.0-5.0-1.40,d8mmm1qn,1872,assets/stimuli/fdmow.png,0,random,FALSE,"[""assets/stimuli/fnmob.png"",""assets/stimuli/fdfob.png""]",,
,,,,,html-keyboard-response,88,114586,0.0-5.0-0.41,d8mmm1qn,null,+,null,,,,,
,,,,,html-keyboard-response,89,116238,0.0-5.0-1.41,d8mmm1qn,1650,assets/stimuli/fnfyw.png,0,random,FALSE,"[""assets/stimuli/fdfow.png"",""assets/stimuli/pdcnb.png""]",,
,,,,,html-keyboard-response,90,116753,0.0-5.0-0.42,d8mmm1qn,null,+,null,,,,,
,,,,,html-keyboard-response,91,118038,0.0-5.0-1.42,d8mmm1qn,1284,assets/stimuli/pdcob.png,1,random,FALSE,"[""assets/stimuli/fdmyb.png"",""assets/stimuli/fdmow.png""]",,
,,,,,html-keyboard-response,92,118544,0.0-5.0-0.43,d8mmm1qn,null,+,null,,,,,
,,,,,html-keyboard-response,93,120564,0.0-5.0-1.43,d8mmm1qn,2019,assets/stimuli/fdfyw.png,1,random,FALSE,"[""assets/stimuli/pncos.png"",""assets/stimuli/pncns.png""]",,
,,,,,html-keyboard-response,94,121079,0.0-5.0-0.44,d8mmm1qn,null,+,null,,,,,
,,,,,html-keyboard-response,95,122640,0.0-5.0-1.44,d8mmm1qn,1560,assets/stimuli/fnfyb.png,1,random,FALSE,"[""assets/stimuli/pdhnb.png"",""assets/stimuli/fdfyb.png""]",,
,,,,,html-keyboard-response,96,123152,0.0-5.0-0.45,d8mmm1qn,null,+,null,,,,,
,,,,,html-keyboard-response,97,125343,0.0-5.0-1.45,d8mmm1qn,2190,assets/stimuli/fdmyb.png,0,random,FALSE,"[""assets/stimuli/pnhnb.png"",""assets/stimuli/pncnb.png""]",,
,,,,,html-keyboard-response,98,125860,0.0-5.0-0.46,d8mmm1qn,null,+,null,,,,,
,,,,,html-keyboard-response,99,127429,0.0-5.0-1.46,d8mmm1qn,1567,assets/stimuli/pdhnb.png,0,random,FALSE,"[""assets/stimuli/pnhos.png"",""assets/stimuli/pdcos.png""]",,
,,,,,html-keyboard-response,100,127932,0.0-5.0-0.47,d8mmm1qn,null,+,null,,,,,
,,,,,html-keyboard-response,101,128851,0.0-5.0-1.47,d8mmm1qn,917,assets/stimuli/pdcos.png,1,validation,FALSE,"[""assets/stimuli/fnfow.png"",""assets/stimuli/pdcnb.png""]",,
,,,,,html-keyboard-response,102,129354,0.0-5.0-0.48,d8mmm1qn,null,+,null,,,,,
,,,,,html-keyboard-response,103,131299,0.0-5.0-1.48,d8mmm1qn,1944,assets/stimuli/fdfow.png,0,random,FALSE,"[""assets/stimuli/pdhos.png"",""assets/stimuli/pnhos.png""]",,
,,,,,html-keyboard-response,104,131812,0.0-5.0-0.49,d8mmm1qn,null,+,null,,,,,
,,,,,html-keyboard-response,105,133615,0.0-5.0-1.49,d8mmm1qn,1800,assets/stimuli/fdmyw.png,0,random,FALSE,"[""assets/stimuli/fdfyw.png"",""assets/stimuli/fdfob.png""]",,
,,,,,html-keyboard-response,106,134116,0.0-5.0-0.50,d8mmm1qn,null,+,null,,,,,
,,,,,html-keyboard-response,107,135450,0.0-5.0-1.50,d8mmm1qn,1331,assets/stimuli/pncnb.png,1,random,FALSE,"[""assets/stimuli/fnfow.png"",""assets/stimuli/pdcob.png""]",,
,,,,,html-keyboard-response,108,135952,0.0-5.0-0.51,d8mmm1qn,null,+,null,,,,,
,,,,,html-keyboard-response,109,137408,0.0-5.0-1.51,d8mmm1qn,1455,assets/stimuli/pdcob.png,0,random,FALSE,"[""assets/stimuli/pncnb.png"",""assets/stimuli/fdfyb.png""]",,
,,,,,html-keyboard-response,110,137915,0.0-5.0-0.52,d8mmm1qn,null,+,null,,,,,
,,,,,html-keyboard-response,111,139390,0.0-5.0-1.52,d8mmm1qn,1475,assets/stimuli/pdhns.png,1,random,FALSE,"[""assets/stimuli/fnfob.png"",""assets/stimuli/fdfow.png""]",,
,,,,,html-keyboard-response,112,139907,0.0-5.0-0.53,d8mmm1qn,null,+,null,,,,,
,,,,,html-keyboard-response,113,141132,0.0-5.0-1.53,d8mmm1qn,1222,assets/stimuli/pdhnb.png,0,validation,FALSE,"[""assets/stimuli/pnhos.png"",""assets/stimuli/pdcos.png""]",,
,,,,,html-keyboard-response,114,141639,0.0-5.0-0.54,d8mmm1qn,null,+,null,,,,,
,,,,,html-keyboard-response,115,143374,0.0-5.0-1.54,d8mmm1qn,1733,assets/stimuli/pdhnb.png,0,validation,FALSE,"[""assets/stimuli/pdhos.png"",""assets/stimuli/fdfow.png""]",,
,,,,,html-keyboard-response,116,143879,0.0-5.0-0.55,d8mmm1qn,null,+,null,,,,,
,,,,,html-keyboard-response,117,145541,0.0-5.0-1.55,d8mmm1qn,1660,assets/stimuli/fdfyb.png,1,random,FALSE,"[""assets/stimuli/pdhos.png"",""assets/stimuli/fnfow.png""]",,
,,,,,html-keyboard-response,118,146045,0.0-5.0-0.56,d8mmm1qn,null,+,null,,,,,
,,,,,html-keyboard-response,119,148575,0.0-5.0-1.56,d8mmm1qn,2527,assets/stimuli/pnhob.png,0,random,FALSE,"[""assets/stimuli/pncos.png"",""assets/stimuli/pdcob.png""]",,
,,,,,html-keyboard-response,120,149082,0.0-5.0-0.57,d8mmm1qn,null,+,null,,,,,
,,,,,html-keyboard-response,121,150608,0.0-5.0-1.57,d8mmm1qn,1524,assets/stimuli/fnmob.png,0,random,FALSE,"[""assets/stimuli/fdfow.png"",""assets/stimuli/pncob.png""]",,
,,,,,html-keyboard-response,122,151110,0.0-5.0-0.58,d8mmm1qn,null,+,null,,,,,
,,,,,html-keyboard-response,123,152493,0.0-5.0-1.58,d8mmm1qn,1380,assets/stimuli/fnfow.png,0,random,FALSE,"[""assets/stimuli/fdmyw.png"",""assets/stimuli/pncos.png""]",,
,,,,,html-keyboard-response,124,153009,0.0-5.0-0.59,d8mmm1qn,null,+,null,,,,,
,,,,,html-keyboard-response,125,154077,0.0-5.0-1.59,d8mmm1qn,1066,assets/stimuli/fdfyw.png,1,random,FALSE,"[""assets/stimuli/pdhos.png"",""assets/stimuli/fnfyb.png""]",,
,,,,,html-keyboard-response,126,154581,0.0-5.0-0.60,d8mmm1qn,null,+,null,,,,,
,,,,,html-keyboard-response,127,156599,0.0-5.0-1.60,d8mmm1qn,2015,assets/stimuli/fnfow.png,1,random,FALSE,"[""assets/stimuli/fdmyb.png"",""assets/stimuli/fnmob.png""]",,
,,,,,html-keyboard-response,128,157105,0.0-5.0-0.61,d8mmm1qn,null,+,null,,,,,
,,,,,html-keyboard-response,129,158510,0.0-5.0-1.61,d8mmm1qn,1402,assets/stimuli/fdmyb.png,0,random,FALSE,"[""assets/stimuli/fnfow.png"",""assets/stimuli/pdcnb.png""]",,
,,,,,html-keyboard-response,130,159015,0.0-5.0-0.62,d8mmm1qn,null,+,null,,,,,
,,,,,html-keyboard-response,131,160648,0.0-5.0-1.62,d8mmm1qn,1632,assets/stimuli/fdmyw.png,0,random,FALSE,"[""assets/stimuli/fnfyb.png"",""assets/stimuli/pnhos.png""]",,
,,,,,html-keyboard-response,132,161164,0.0-5.0-0.63,d8mmm1qn,null,+,null,,,,,
,,,,,html-keyboard-response,133,162797,0.0-5.0-1.63,d8mmm1qn,1631,assets/stimuli/pdcos.png,0,random,FALSE,"[""assets/stimuli/pnhns.png"",""assets/stimuli/fdmow.png""]",,
,,,,,html-keyboard-response,134,163311,0.0-5.0-0.64,d8mmm1qn,null,+,null,,,,,
,,,,,html-keyboard-response,135,165134,0.0-5.0-1.64,d8mmm1qn,1821,assets/stimuli/fnfow.png,0,random,FALSE,"[""assets/stimuli/fnfyw.png"",""assets/stimuli/fnmob.png""]",,
,,,,,html-keyboard-response,136,165649,0.0-5.0-0.65,d8mmm1qn,null,+,null,,,,,
,,,,,html-keyboard-response,137,166891,0.0-5.0-1.65,d8mmm1qn,1240,assets/stimuli/pdcnb.png,1,random,FALSE,"[""assets/stimuli/fnfyb.png"",""assets/stimuli/pnhos.png""]",,
,,,,,html-keyboard-response,138,167394,0.0-5.0-0.66,d8mmm1qn,null,+,null,,,,,
,,,,,html-keyboard-response,139,168648,0.0-5.0-1.66,d8mmm1qn,1251,assets/stimuli/fdfob.png,0,random,FALSE,"[""assets/stimuli/fdfyb.png"",""assets/stimuli/pdhnb.png""]",,
,,,,,html-keyboard-response,140,169154,0.0-5.0-0.67,d8mmm1qn,null,+,null,,,,,
,,,,,html-keyboard-response,141,170945,0.0-5.0-1.67,d8mmm1qn,1788,assets/stimuli/fnmow.png,0,check,FALSE,"[""assets/stimuli/fnmow.png"",""assets/stimuli/fnfyb.png""]",TRUE,
,,,,,html-keyboard-response,142,171461,0.0-5.0-0.68,d8mmm1qn,null,+,null,,,,,
,,,,,html-keyboard-response,143,172863,0.0-5.0-1.68,d8mmm1qn,1400,assets/stimuli/fnmob.png,1,random,FALSE,"[""assets/stimuli/pdcos.png"",""assets/stimuli/fdmyb.png""]",,
,,,,,html-keyboard-response,144,173370,0.0-5.0-0.69,d8mmm1qn,null,+,null,,,,,
,,,,,html-keyboard-response,145,175163,0.0-5.0-1.69,d8mmm1qn,1792,assets/stimuli/fdmyw.png,1,validation,FALSE,"[""assets/stimuli/fnfob.png"",""assets/stimuli/fnmyw.png""]",,
,,,,,html-keyboard-response,146,175673,0.0-5.0-0.70,d8mmm1qn,null,+,null,,,,,
,,,,,html-keyboard-response,147,177327,0.0-5.0-1.70,d8mmm1qn,1652,assets/stimuli/fnmyb.png,1,random,FALSE,"[""assets/stimuli/pdcns.png"",""assets/stimuli/fdmyw.png""]",,
,,,,,html-keyboard-response,148,177835,0.0-5.0-0.71,d8mmm1qn,null,+,null,,,,,
,,,,,html-keyboard-response,149,179512,0.0-5.0-1.71,d8mmm1qn,1675,assets/stimuli/fnmob.png,1,random,FALSE,"[""assets/stimuli/pnhnb.png"",""assets/stimuli/fnfyb.png""]",,
,,,,,html-keyboard-response,150,180020,0.0-5.0-0.72,d8mmm1qn,null,+,null,,,,,
,,,,,html-keyboard-response,151,183018,0.0-5.0-1.72,d8mmm1qn,2995,assets/stimuli/pdcnb.png,1,random,FALSE,"[""assets/stimuli/pnhnb.png"",""assets/stimuli/fdfyb.png""]",,
,,,,,html-keyboard-response,152,183535,0.0-5.0-0.73,d8mmm1qn,null,+,null,,,,,
,,,,,html-keyboard-response,153,185336,0.0-5.0-1.73,d8mmm1qn,1799,assets/stimuli/pncns.png,1,random,FALSE,"[""assets/stimuli/fnmyb.png"",""assets/stimuli/pdhnb.png""]",,
,,,,,html-keyboard-response,154,185838,0.0-5.0-0.74,d8mmm1qn,null,+,null,,,,,
,,,,,html-keyboard-response,155,188665,0.0-5.0-1.74,d8mmm1qn,2825,assets/stimuli/fdfyb.png,1,random,FALSE,"[""assets/stimuli/pdcnb.png"",""assets/stimuli/fdmow.png""]",,
,,,,,html-keyboard-response,156,189172,0.0-5.0-0.75,d8mmm1qn,null,+,null,,,,,
,,,,,html-keyboard-response,157,193652,0.0-5.0-1.75,d8mmm1qn,4477,assets/stimuli/fnmow.png,0,random,FALSE,"[""assets/stimuli/pdcns.png"",""assets/stimuli/pdhnb.png""]",,
,,,,,html-keyboard-response,158,194156,0.0-5.0-0.76,d8mmm1qn,null,+,null,,,,,
,,,,,html-keyboard-response,159,195426,0.0-5.0-1.76,d8mmm1qn,1270,assets/stimuli/pdcob.png,1,validation,FALSE,"[""assets/stimuli/fnfob.png"",""assets/stimuli/pnhob.png""]",,
,,,,,html-keyboard-response,160,195930,0.0-5.0-0.77,d8mmm1qn,null,+,null,,,,,
,,,,,html-keyboard-response,161,197325,0.0-5.0-1.77,d8mmm1qn,1392,assets/stimuli/fnmob.png,1,check,FALSE,"[""assets/stimuli/fnmow.png"",""assets/stimuli/fnmob.png""]",TRUE,
,,,,,html-keyboard-response,162,197840,0.0-5.0-0.78,d8mmm1qn,null,+,null,,,,,
,,,,,html-keyboard-response,163,199298,0.0-5.0-1.78,d8mmm1qn,1456,assets/stimuli/pdhob.png,1,validation,FALSE,"[""assets/stimuli/fdfyb.png"",""assets/stimuli/pnhob.png""]",,
,,,,,html-keyboard-response,164,199805,0.0-5.0-0.79,d8mmm1qn,null,+,null,,,,,
,,,,,html-keyboard-response,165,201520,0.0-5.0-1.79,d8mmm1qn,1713,assets/stimuli/fnmyb.png,1,random,FALSE,"[""assets/stimuli/fdfyw.png"",""assets/stimuli/fnmob.png""]",,
,,,,,html-keyboard-response,166,202032,0.0-5.0-0.80,d8mmm1qn,null,+,null,,,,,
,,,,,html-keyboard-response,167,203959,0.0-5.0-1.80,d8mmm1qn,1926,assets/stimuli/pnhnb.png,1,random,FALSE,"[""assets/stimuli/fdfyw.png"",""assets/stimuli/pdcns.png""]",,
,,,,,html-keyboard-response,168,204464,0.0-5.0-0.81,d8mmm1qn,null,+,null,,,,,
,,,,,html-keyboard-response,169,206068,0.0-5.0-1.81,d8mmm1qn,1601,assets/stimuli/pdcnb.png,1,random,FALSE,"[""assets/stimuli/fdfob.png"",""assets/stimuli/pdcob.png""]",,
,,,,,html-keyboard-response,170,206580,0.0-5.0-0.82,d8mmm1qn,null,+,null,,,,,
,,,,,html-keyboard-response,171,208021,0.0-5.0-1.82,d8mmm1qn,1439,assets/stimuli/fdmob.png,1,random,FALSE,"[""assets/stimuli/fnfyw.png"",""assets/stimuli/fnmyw.png""]",,
,,,,,html-keyboard-response,172,208530,0.0-5.0-0.83,d8mmm1qn,null,+,null,,,,,
,,,,,html-keyboard-response,173,210085,0.0-5.0-1.83,d8mmm1qn,1553,assets/stimuli/fdfow.png,1,random,FALSE,"[""assets/stimuli/fdmyb.png"",""assets/stimuli/fdfyb.png""]",,
,,,,,html-keyboard-response,174,210601,0.0-5.0-0.84,d8mmm1qn,null,+,null,,,,,
,,,,,html-keyboard-response,175,211900,0.0-5.0-1.84,d8mmm1qn,1298,assets/stimuli/pdhns.png,1,random,FALSE,"[""assets/stimuli/fdmyb.png"",""assets/stimuli/pdhos.png""]",,
,,,,,html-keyboard-response,176,212407,0.0-5.0-0.85,d8mmm1qn,null,+,null,,,,,
,,,,,html-keyboard-response,177,214014,0.0-5.0-1.85,d8mmm1qn,1606,assets/stimuli/pdcob.png,0,random,FALSE,"[""assets/stimuli/fdfyb.png"",""assets/stimuli/fnmyb.png""]",,
,,,,,html-keyboard-response,178,214523,0.0-5.0-0.86,d8mmm1qn,null,+,null,,,,,
,,,,,html-keyboard-response,179,216127,0.0-5.0-1.86,d8mmm1qn,1601,assets/stimuli/fdmyb.png,0,random,FALSE,"[""assets/stimuli/fnmyb.png"",""assets/stimuli/pnhns.png""]",,
,,,,,html-keyboard-response,180,216630,0.0-5.0-0.87,d8mmm1qn,null,+,null,,,,,
,,,,,html-keyboard-response,181,218265,0.0-5.0-1.87,d8mmm1qn,1634,assets/stimuli/pdhns.png,0,random,FALSE,"[""assets/stimuli/pncns.png"",""assets/stimuli/fnmyb.png""]",,
,,,,,html-keyboard-response,182,218775,0.0-5.0-0.88,d8mmm1qn,null,+,null,,,,,
,,,,,html-keyboard-response,183,220119,0.0-5.0-1.88,d8mmm1qn,1342,assets/stimuli/fdfyb.png,0,random,FALSE,"[""assets/stimuli/fdmow.png"",""assets/stimuli/pnhns.png""]",,
,,,,,html-keyboard-response,184,220631,0.0-5.0-0.89,d8mmm1qn,null,+,null,,,,,
,,,,,html-keyboard-response,185,221969,0.0-5.0-1.89,d8mmm1qn,1337,assets/stimuli/pnhnb.png,1,random,FALSE,"[""assets/stimuli/pdcob.png"",""assets/stimuli/pdhob.png""]",,
,,,,,html-keyboard-response,186,222479,0.0-5.0-0.90,d8mmm1qn,null,+,null,,,,,
,,,,,html-keyboard-response,187,224626,0.0-5.0-1.90,d8mmm1qn,2146,assets/stimuli/fdmyw.png,1,validation,FALSE,"[""assets/stimuli/pncns.png"",""assets/stimuli/pnhns.png""]",,
,,,,,html-keyboard-response,188,225138,0.0-5.0-0.91,d8mmm1qn,null,+,null,,,,,
,,,,,html-keyboard-response,189,227342,0.0-5.0-1.91,d8mmm1qn,2202,assets/stimuli/pncos.png,1,random,FALSE,"[""assets/stimuli/fdmow.png"",""assets/stimuli/fnfow.png""]",,
,,,,,html-keyboard-response,190,227848,0.0-5.0-0.92,d8mmm1qn,null,+,null,,,,,
,,,,,html-keyboard-response,191,229597,0.0-5.0-1.92,d8mmm1qn,1747,assets/stimuli/fnfyw.png,0,random,FALSE,"[""assets/stimuli/fnfyb.png"",""assets/stimuli/fdmyb.png""]",,
,,,,,html-keyboard-response,192,230101,0.0-5.0-0.93,d8mmm1qn,null,+,null,,,,,
,,,,,html-keyboard-response,193,231605,0.0-5.0-1.93,d8mmm1qn,1502,assets/stimuli/pnhob.png,0,random,FALSE,"[""assets/stimuli/pdhns.png"",""assets/stimuli/pncob.png""]",,
,,,,,html-keyboard-response,194,232112,0.0-5.0-0.94,d8mmm1qn,null,+,null,,,,,
,,,,,html-keyboard-response,195,233752,0.0-5.0-1.94,d8mmm1qn,1638,assets/stimuli/fdmyw.png,1,random,FALSE,"[""assets/stimuli/fdfyb.png"",""assets/stimuli/fdmob.png""]",,
,,,,,html-keyboard-response,196,234261,0.0-5.0-0.95,d8mmm1qn,null,+,null,,,,,
,,,,,html-keyboard-response,197,235908,0.0-5.0-1.95,d8mmm1qn,1644,assets/stimuli/fdmyb.png,1,random,FALSE,"[""assets/stimuli/pnhns.png"",""assets/stimuli/pdhnb.png""]",,
,,,,,html-keyboard-response,198,236409,0.0-5.0-0.96,d8mmm1qn,null,+,null,,,,,
,,,,,html-keyboard-response,199,238689,0.0-5.0-1.96,d8mmm1qn,2278,assets/stimuli/pdcns.png,1,random,FALSE,"[""assets/stimuli/fnmob.png"",""assets/stimuli/fnfyw.png""]",,
,,,,,html-keyboard-response,200,239199,0.0-5.0-0.97,d8mmm1qn,null,+,null,,,,,
,,,,,html-keyboard-response,201,240818,0.0-5.0-1.97,d8mmm1qn,1618,assets/stimuli/fnfyw.png,1,random,FALSE,"[""assets/stimuli/pncns.png"",""assets/stimuli/fnmob.png""]",,
,,,,,html-keyboard-response,202,241330,0.0-5.0-0.98,d8mmm1qn,null,+,null,,,,,
,,,,,html-keyboard-response,203,243084,0.0-5.0-1.98,d8mmm1qn,1751,assets/stimuli/fdmob.png,1,random,FALSE,"[""assets/stimuli/fnmow.png"",""assets/stimuli/fdmyw.png""]",,
,,,,,html-keyboard-response,204,243586,0.0-5.0-0.99,d8mmm1qn,null,+,null,,,,,
,,,,,html-keyboard-response,205,244905,0.0-5.0-1.99,d8mmm1qn,1318,assets/stimuli/pdhnb.png,1,random,FALSE,"[""assets/stimuli/pdcos.png"",""assets/stimuli/pdhob.png""]",,
,,,,,html-keyboard-response,206,245411,0.0-5.0-0.100,d8mmm1qn,null,+,null,,,,,
,,,,,html-keyboard-response,207,246351,0.0-5.0-1.100,d8mmm1qn,938,assets/stimuli/fdmow.png,1,random,FALSE,"[""assets/stimuli/pdcnb.png"",""assets/stimuli/fdfow.png""]",,
,,,,,html-keyboard-response,208,246857,0.0-5.0-0.101,d8mmm1qn,null,+,null,,,,,
,,,,,html-keyboard-response,209,248216,0.0-5.0-1.101,d8mmm1qn,1357,assets/stimuli/pncnb.png,0,random,FALSE,"[""assets/stimuli/pnhns.png"",""assets/stimuli/fdfyb.png""]",,
,,,,,html-keyboard-response,210,248729,0.0-5.0-0.102,d8mmm1qn,null,+,null,,,,,
,,,,,html-keyboard-response,211,249934,0.0-5.0-1.102,d8mmm1qn,1202,assets/stimuli/pdcos.png,1,random,FALSE,"[""assets/stimuli/fnmyb.png"",""assets/stimuli/pnhos.png""]",,
,,,,,html-keyboard-response,212,250441,0.0-5.0-0.103,d8mmm1qn,null,+,null,,,,,
,,,,,html-keyboard-response,213,251990,0.0-5.0-1.103,d8mmm1qn,1545,assets/stimuli/pdhos.png,0,random,FALSE,"[""assets/stimuli/pnhnb.png"",""assets/stimuli/pdcns.png""]",,
,,,,,html-keyboard-response,214,252495,0.0-5.0-0.104,d8mmm1qn,null,+,null,,,,,
,,,,,html-keyboard-response,215,253690,0.0-5.0-1.104,d8mmm1qn,1193,assets/stimuli/fnmyb.png,1,random,FALSE,"[""assets/stimuli/pdhns.png"",""assets/stimuli/fdmyw.png""]",,
,,,,,html-keyboard-response,216,254193,0.0-5.0-0.105,d8mmm1qn,null,+,null,,,,,
,,,,,html-keyboard-response,217,256406,0.0-5.0-1.105,d8mmm1qn,2211,assets/stimuli/fnmob.png,1,random,FALSE,"[""assets/stimuli/pdcnb.png"",""assets/stimuli/pncns.png""]",,
,,,,,html-keyboard-response,218,256916,0.0-5.0-0.106,d8mmm1qn,null,+,null,,,,,
,,,,,html-keyboard-response,219,259042,0.0-5.0-1.106,d8mmm1qn,2124,assets/stimuli/pnhnb.png,0,random,FALSE,"[""assets/stimuli/fnmyb.png"",""assets/stimuli/fdfyw.png""]",,
,,,,,html-keyboard-response,220,259549,0.0-5.0-0.107,d8mmm1qn,null,+,null,,,,,
,,,,,html-keyboard-response,221,262280,0.0-5.0-1.107,d8mmm1qn,2728,assets/stimuli/fnfob.png,1,random,FALSE,"[""assets/stimuli/pncos.png"",""assets/stimuli/pncob.png""]",,
,,,,,html-keyboard-response,222,262787,0.0-5.0-0.108,d8mmm1qn,null,+,null,,,,,
,,,,,html-keyboard-response,223,264278,0.0-5.0-1.108,d8mmm1qn,1488,assets/stimuli/fdmob.png,0,random,FALSE,"[""assets/stimuli/fdmyw.png"",""assets/stimuli/pdcnb.png""]",,
,,,,,html-keyboard-response,224,264781,0.0-5.0-0.109,d8mmm1qn,null,+,null,,,,,
,,,,,html-keyboard-response,225,266144,0.0-5.0-1.109,d8mmm1qn,1361,assets/stimuli/fnmyw.png,0,random,FALSE,"[""assets/stimuli/fnfob.png"",""assets/stimuli/pnhnb.png""]",,
,,,,,html-keyboard-response,226,266654,0.0-5.0-0.110,d8mmm1qn,null,+,null,,,,,
,,,,,html-keyboard-response,227,268311,0.0-5.0-1.110,d8mmm1qn,1656,assets/stimuli/pdcns.png,1,random,FALSE,"[""assets/stimuli/fnfyw.png"",""assets/stimuli/fdfyb.png""]",,
,,,,,html-keyboard-response,228,268818,0.0-5.0-0.111,d8mmm1qn,null,+,null,,,,,
,,,,,html-keyboard-response,229,270152,0.0-5.0-1.111,d8mmm1qn,1331,assets/stimuli/fnmob.png,1,random,FALSE,"[""assets/stimuli/pdcnb.png"",""assets/stimuli/fnfob.png""]",,
,,,,,html-keyboard-response,230,270656,0.0-5.0-0.112,d8mmm1qn,null,+,null,,,,,
,,,,,html-keyboard-response,231,272687,0.0-5.0-1.112,d8mmm1qn,2030,assets/stimuli/pncnb.png,0,random,FALSE,"[""assets/stimuli/fnmyb.png"",""assets/stimuli/fnmyw.png""]",,
,,,,,html-keyboard-response,232,273195,0.0-5.0-0.113,d8mmm1qn,null,+,null,,,,,
,,,,,html-keyboard-response,233,274955,0.0-5.0-1.113,d8mmm1qn,1758,assets/stimuli/pncos.png,0,random,FALSE,"[""assets/stimuli/pdhos.png"",""assets/stimuli/pnhnb.png""]",,
,,,,,html-keyboard-response,234,275471,0.0-5.0-0.114,d8mmm1qn,null,+,null,,,,,
,,,,,html-keyboard-response,235,277124,0.0-5.0-1.114,d8mmm1qn,1652,assets/stimuli/pdhob.png,1,random,FALSE,"[""assets/stimuli/pdcob.png"",""assets/stimuli/pnhob.png""]",,
,,,,,html-keyboard-response,236,277634,0.0-5.0-0.115,d8mmm1qn,null,+,null,,,,,
,,,,,html-keyboard-response,237,279616,0.0-5.0-1.115,d8mmm1qn,1980,assets/stimuli/fdfob.png,1,random,FALSE,"[""assets/stimuli/pnhnb.png"",""assets/stimuli/pdhnb.png""]",,
,,,,,html-keyboard-response,238,280124,0.0-5.0-0.116,d8mmm1qn,null,+,null,,,,,
,,,,,html-keyboard-response,239,281910,0.0-5.0-1.116,d8mmm1qn,1784,assets/stimuli/fnmyw.png,0,random,FALSE,"[""assets/stimuli/fdmyw.png"",""assets/stimuli/fdmyb.png""]",,
,,,,,html-keyboard-response,240,282424,0.0-5.0-0.117,d8mmm1qn,null,+,null,,,,,
,,,,,html-keyboard-response,241,283940,0.0-5.0-1.117,d8mmm1qn,1514,assets/stimuli/fnmob.png,1,validation,FALSE,"[""assets/stimuli/pdcns.png"",""assets/stimuli/fdmow.png""]",,
,,,,,html-keyboard-response,242,284451,0.0-5.0-0.118,d8mmm1qn,null,+,null,,,,,
,,,,,html-keyboard-response,243,286025,0.0-5.0-1.118,d8mmm1qn,1572,assets/stimuli/pdcos.png,0,random,FALSE,"[""assets/stimuli/pncob.png"",""assets/stimuli/pnhns.png""]",,
,,,,,html-keyboard-response,244,286532,0.0-5.0-0.119,d8mmm1qn,null,+,null,,,,,
,,,,,html-keyboard-response,245,288120,0.0-5.0-1.119,d8mmm1qn,1586,assets/stimuli/pdcos.png,0,validation,FALSE,"[""assets/stimuli/pncnb.png"",""assets/stimuli/fnmob.png""]",,
,,,,,html-keyboard-response,246,288632,0.0-5.0-0.120,d8mmm1qn,null,+,null,,,,,
,,,,,html-keyboard-response,247,290758,0.0-5.0-1.120,d8mmm1qn,2124,assets/stimuli/fdmyb.png,0,random,FALSE,"[""assets/stimuli/pdhnb.png"",""assets/stimuli/pncnb.png""]",,
,,,,,html-keyboard-response,248,291263,0.0-5.0-0.121,d8mmm1qn,null,+,null,,,,,
,,,,,html-keyboard-response,249,293010,0.0-5.0-1.121,d8mmm1qn,1746,assets/stimuli/pdcob.png,0,random,FALSE,"[""assets/stimuli/pdcnb.png"",""assets/stimuli/pnhob.png""]",,
,,,,,html-keyboard-response,250,293518,0.0-5.0-0.122,d8mmm1qn,null,+,null,,,,,
,,,,,html-keyboard-response,251,294944,0.0-5.0-1.122,d8mmm1qn,1424,assets/stimuli/fnmob.png,1,random,FALSE,"[""assets/stimuli/pnhnb.png"",""assets/stimuli/fnmyb.png""]",,
,,,,,html-keyboard-response,252,295448,0.0-5.0-0.123,d8mmm1qn,null,+,null,,,,,
,,,,,html-keyboard-response,253,297163,0.0-5.0-1.123,d8mmm1qn,1713,assets/stimuli/fnfyw.png,0,random,FALSE,"[""assets/stimuli/pnhnb.png"",""assets/stimuli/pdhos.png""]",,
,,,,,html-keyboard-response,254,297676,0.0-5.0-0.124,d8mmm1qn,null,+,null,,,,,
,,,,,html-keyboard-response,255,299186,0.0-5.0-1.124,d8mmm1qn,1508,assets/stimuli/fdfyw.png,0,random,FALSE,"[""assets/stimuli/fnfob.png"",""assets/stimuli/fnmob.png""]",,
,,,,,html-keyboard-response,256,299703,0.0-5.0-0.125,d8mmm1qn,null,+,null,,,,,
,,,,,html-keyboard-response,257,301110,0.0-5.0-1.125,d8mmm1qn,1405,assets/stimuli/pncns.png,1,random,FALSE,"[""assets/stimuli/fnfyb.png"",""assets/stimuli/pncos.png""]",,
,,,,,html-keyboard-response,258,301617,0.0-5.0-0.126,d8mmm1qn,null,+,null,,,,,
,,,,,html-keyboard-response,259,304107,0.0-5.0-1.126,d8mmm1qn,2487,assets/stimuli/pdcob.png,1,random,FALSE,"[""assets/stimuli/fnmyw.png"",""assets/stimuli/fnmyb.png""]",,
,,,,,html-keyboard-response,260,304623,0.0-5.0-0.127,d8mmm1qn,null,+,null,,,,,
,,,,,html-keyboard-response,261,305988,0.0-5.0-1.127,d8mmm1qn,1362,assets/stimuli/fnfyw.png,1,random,FALSE,"[""assets/stimuli/pdcob.png"",""assets/stimuli/fdfyb.png""]",,
,,,,,html-keyboard-response,262,306490,0.0-5.0-0.128,d8mmm1qn,null,+,null,,,,,
,,,,,html-keyboard-response,263,308071,0.0-5.0-1.128,d8mmm1qn,1579,assets/stimuli/fdmyb.png,1,validation,FALSE,"[""assets/stimuli/fnmyw.png"",""assets/stimuli/fnmyb.png""]",,
,,,,,html-keyboard-response,264,308575,0.0-5.0-0.129,d8mmm1qn,null,+,null,,,,,
,,,,,html-keyboard-response,265,310343,0.0-5.0-1.129,d8mmm1qn,1766,assets/stimuli/pdhos.png,0,random,FALSE,"[""assets/stimuli/fnmob.png"",""assets/stimuli/fnfow.png""]",,
,,,,,html-keyboard-response,266,310849,0.0-5.0-0.130,d8mmm1qn,null,+,null,,,,,
,,,,,html-keyboard-response,267,312188,0.0-5.0-1.130,d8mmm1qn,1337,assets/stimuli/fdfyw.png,1,random,FALSE,"[""assets/stimuli/fnmyb.png"",""assets/stimuli/fdfow.png""]",,
,,,,,html-keyboard-response,268,312701,0.0-5.0-0.131,d8mmm1qn,null,+,null,,,,,
,,,,,html-keyboard-response,269,313987,0.0-5.0-1.131,d8mmm1qn,1285,assets/stimuli/fnfyw.png,1,random,FALSE,"[""assets/stimuli/pdhnb.png"",""assets/stimuli/fdfyw.png""]",,
,,,,,html-keyboard-response,270,314496,0.0-5.0-0.132,d8mmm1qn,null,+,null,,,,,
,,,,,html-keyboard-response,271,316022,0.0-5.0-1.132,d8mmm1qn,1524,assets/stimuli/fdmow.png,0,random,FALSE,"[""assets/stimuli/fnmow.png"",""assets/stimuli/fdfyb.png""]",,
,,,,,html-keyboard-response,272,316535,0.0-5.0-0.133,d8mmm1qn,null,+,null,,,,,
,,,,,html-keyboard-response,273,318073,0.0-5.0-1.133,d8mmm1qn,1536,assets/stimuli/fnfow.png,1,random,FALSE,"[""assets/stimuli/pnhob.png"",""assets/stimuli/fdfow.png""]",,
,,,,,html-keyboard-response,274,318577,0.0-5.0-0.134,d8mmm1qn,null,+,null,,,,,
,,,,,html-keyboard-response,275,320645,0.0-5.0-1.134,d8mmm1qn,2067,assets/stimuli/fdmyw.png,0,validation,FALSE,"[""assets/stimuli/fnfyw.png"",""assets/stimuli/fdfow.png""]",,
,,,,,html-keyboard-response,276,321162,0.0-5.0-0.135,d8mmm1qn,null,+,null,,,,,
,,,,,html-keyboard-response,277,323865,0.0-5.0-1.135,d8mmm1qn,2701,assets/stimuli/pdcns.png,0,random,FALSE,"[""assets/stimuli/fnmyw.png"",""assets/stimuli/fnfob.png""]",,
,,,,,html-keyboard-response,278,324381,0.0-5.0-0.136,d8mmm1qn,null,+,null,,,,,
,,,,,html-keyboard-response,279,326043,0.0-5.0-1.136,d8mmm1qn,1660,assets/stimuli/pdcns.png,0,check,FALSE,"[""assets/stimuli/pdcns.png"",""assets/stimuli/fnfob.png""]",TRUE,
,,,,,html-keyboard-response,280,326550,0.0-5.0-0.137,d8mmm1qn,null,+,null,,,,,
,,,,,html-keyboard-response,281,328129,0.0-5.0-1.137,d8mmm1qn,1576,assets/stimuli/fdmow.png,1,random,FALSE,"[""assets/stimuli/pdcns.png"",""assets/stimuli/fdmob.png""]",,
,,,,,html-keyboard-response,282,328634,0.0-5.0-0.138,d8mmm1qn,null,+,null,,,,,
,,,,,html-keyboard-response,283,330112,0.0-5.0-1.138,d8mmm1qn,1476,assets/stimuli/pnhns.png,1,random,FALSE,"[""assets/stimuli/fdfob.png"",""assets/stimuli/pdcns.png""]",,
,,,,,html-keyboard-response,284,330626,0.0-5.0-0.139,d8mmm1qn,null,+,null,,,,,
,,,,,html-keyboard-response,285,332225,0.0-5.0-1.139,d8mmm1qn,1597,assets/stimuli/pdhns.png,0,random,FALSE,"[""assets/stimuli/fdmyw.png"",""assets/stimuli/fnfow.png""]",,
,,,,,html-keyboard-response,286,332734,0.0-5.0-0.140,d8mmm1qn,null,+,null,,,,,
,,,,,html-keyboard-response,287,334460,0.0-5.0-1.140,d8mmm1qn,1724,assets/stimuli/fdmob.png,0,random,FALSE,"[""assets/stimuli/pdcob.png"",""assets/stimuli/pncns.png""]",,
,,,,,html-keyboard-response,288,334974,0.0-5.0-0.141,d8mmm1qn,null,+,null,,,,,
,,,,,html-keyboard-response,289,336358,0.0-5.0-1.141,d8mmm1qn,1382,assets/stimuli/pnhob.png,1,random,FALSE,"[""assets/stimuli/fnmyb.png"",""assets/stimuli/pdcos.png""]",,
,,,,,html-keyboard-response,290,336860,0.0-5.0-0.142,d8mmm1qn,null,+,null,,,,,
,,,,,html-keyboard-response,291,338104,0.0-5.0-1.142,d8mmm1qn,1241,assets/stimuli/fnmyb.png,0,random,FALSE,"[""assets/stimuli/fdfow.png"",""assets/stimuli/pncob.png""]",,
,,,,,html-keyboard-response,292,338620,0.0-5.0-0.143,d8mmm1qn,null,+,null,,,,,
,,,,,html-keyboard-response,293,339970,0.0-5.0-1.143,d8mmm1qn,1347,assets/stimuli/fnmyb.png,0,random,FALSE,"[""assets/stimuli/fdmyw.png"",""assets/stimuli/pdcos.png""]",,
,,,,,html-keyboard-response,294,340474,0.0-5.0-0.144,d8mmm1qn,null,+,null,,,,,
,,,,,html-keyboard-response,295,342254,0.0-5.0-1.144,d8mmm1qn,1779,assets/stimuli/pncos.png,1,random,FALSE,"[""assets/stimuli/pnhob.png"",""assets/stimuli/pncnb.png""]",,
,,,,,html-keyboard-response,296,342764,0.0-5.0-0.145,d8mmm1qn,null,+,null,,,,,
,,,,,html-keyboard-response,297,345644,0.0-5.0-1.145,d8mmm1qn,2878,assets/stimuli/fnfyb.png,0,random,FALSE,"[""assets/stimuli/pncnb.png"",""assets/stimuli/pdhnb.png""]",,
,,,,,html-keyboard-response,298,346160,0.0-5.0-0.146,d8mmm1qn,null,+,null,,,,,
,,,,,html-keyboard-response,299,347418,0.0-5.0-1.146,d8mmm1qn,1256,assets/stimuli/pdhnb.png,1,random,FALSE,"[""assets/stimuli/pdcos.png"",""assets/stimuli/pdhob.png""]",,
,,,,,html-keyboard-response,300,347931,0.0-5.0-0.147,d8mmm1qn,null,+,null,,,,,
,,,,,html-keyboard-response,301,349807,0.0-5.0-1.147,d8mmm1qn,1872,assets/stimuli/pnhns.png,0,random,FALSE,"[""assets/stimuli/fnmyw.png"",""assets/stimuli/fdfyw.png""]",,
,,,,,html-keyboard-response,302,350313,0.0-5.0-0.148,d8mmm1qn,null,+,null,,,,,
,,,,,html-keyboard-response,303,351802,0.0-5.0-1.148,d8mmm1qn,1487,assets/stimuli/fnmob.png,1,random,FALSE,"[""assets/stimuli/fdmyw.png"",""assets/stimuli/fnfob.png""]",,
,,,,,html-keyboard-response,304,352307,0.0-5.0-0.149,d8mmm1qn,null,+,null,,,,,
,,,,,html-keyboard-response,305,354172,0.0-5.0-1.149,d8mmm1qn,1864,assets/stimuli/pnhns.png,0,random,FALSE,"[""assets/stimuli/pdhns.png"",""assets/stimuli/pdcns.png""]",,
,,,,,html-keyboard-response,306,354687,0.0-5.0-0.150,d8mmm1qn,null,+,null,,,,,
,,,,,html-keyboard-response,307,356019,0.0-5.0-1.150,d8mmm1qn,1330,assets/stimuli/pnhos.png,1,random,FALSE,"[""assets/stimuli/fnfow.png"",""assets/stimuli/pncns.png""]",,
,,,,,html-keyboard-response,308,356529,0.0-5.0-0.151,d8mmm1qn,null,+,null,,,,,
,,,,,html-keyboard-response,309,357765,0.0-5.0-1.151,d8mmm1qn,1234,assets/stimuli/fnfow.png,0,random,FALSE,"[""assets/stimuli/fnfob.png"",""assets/stimuli/pdhnb.png""]",,
,,,,,html-keyboard-response,310,358275,0.0-5.0-0.152,d8mmm1qn,null,+,null,,,,,
,,,,,html-keyboard-response,311,360352,0.0-5.0-1.152,d8mmm1qn,2074,assets/stimuli/fnfyw.png,1,random,FALSE,"[""assets/stimuli/fdfyb.png"",""assets/stimuli/fnfob.png""]",,
,,,,,html-keyboard-response,312,360855,0.0-5.0-0.153,d8mmm1qn,null,+,null,,,,,
,,,,,html-keyboard-response,313,362479,0.0-5.0-1.153,d8mmm1qn,1622,assets/stimuli/fdfow.png,0,random,FALSE,"[""assets/stimuli/fdfyb.png"",""assets/stimuli/pnhns.png""]",,
,,,,,html-keyboard-response,314,362995,0.0-5.0-0.154,d8mmm1qn,null,+,null,,,,,
,,,,,html-keyboard-response,315,365401,0.0-5.0-1.154,d8mmm1qn,2403,assets/stimuli/fnmyw.png,1,random,FALSE,"[""assets/stimuli/fnfob.png"",""assets/stimuli/fnfow.png""]",,
,,,,,html-keyboard-response,316,365909,0.0-5.0-0.155,d8mmm1qn,null,+,null,,,,,
,,,,,html-keyboard-response,317,367301,0.0-5.0-1.155,d8mmm1qn,1390,assets/stimuli/fnfyw.png,1,random,FALSE,"[""assets/stimuli/fdmow.png"",""assets/stimuli/fdfyw.png""]",,
,,,,,html-keyboard-response,318,367810,0.0-5.0-0.156,d8mmm1qn,null,+,null,,,,,
,,,,,html-keyboard-response,319,369154,0.0-5.0-1.156,d8mmm1qn,1342,assets/stimuli/fdfyb.png,0,random,FALSE,"[""assets/stimuli/fdfob.png"",""assets/stimuli/pnhob.png""]",,
,,,,,html-keyboard-response,320,369666,0.0-5.0-0.157,d8mmm1qn,null,+,null,,,,,
,,,,,html-keyboard-response,321,371230,0.0-5.0-1.157,d8mmm1qn,1562,assets/stimuli/fdfow.png,0,random,FALSE,"[""assets/stimuli/fdfob.png"",""assets/stimuli/pncnb.png""]",,
,,,,,html-keyboard-response,322,371741,0.0-5.0-0.158,d8mmm1qn,null,+,null,,,,,
,,,,,html-keyboard-response,323,374782,0.0-5.0-1.158,d8mmm1qn,3038,assets/stimuli/fdmyw.png,0,random,FALSE,"[""assets/stimuli/fnfyb.png"",""assets/stimuli/fnfob.png""]",,
,,,,,html-keyboard-response,324,375295,0.0-5.0-0.159,d8mmm1qn,null,+,null,,,,,
,,,,,html-keyboard-response,325,377311,0.0-5.0-1.159,d8mmm1qn,2014,assets/stimuli/pdcns.png,1,validation,FALSE,"[""assets/stimuli/pdcob.png"",""assets/stimuli/pdcos.png""]",,
,,,,,html-keyboard-response,326,377816,0.0-5.0-0.160,d8mmm1qn,null,+,null,,,,,
,,,,,html-keyboard-response,327,379234,0.0-5.0-1.160,d8mmm1qn,1417,assets/stimuli/pdhns.png,1,random,FALSE,"[""assets/stimuli/fnmow.png"",""assets/stimuli/pdhos.png""]",,
,,,,,html-keyboard-response,328,379748,0.0-5.0-0.161,d8mmm1qn,null,+,null,,,,,
,,,,,html-keyboard-response,329,381372,0.0-5.0-1.161,d8mmm1qn,1621,assets/stimuli/pdhns.png,0,check,FALSE,"[""assets/stimuli/pdhns.png"",""assets/stimuli/pdhnb.png""]",TRUE,
,,,,,html-keyboard-response,330,381885,0.0-5.0-0.162,d8mmm1qn,null,+,null,,,,,
,,,,,html-keyboard-response,331,384320,0.0-5.0-1.162,d8mmm1qn,2432,assets/stimuli/fnmyw.png,1,random,FALSE,"[""assets/stimuli/pncos.png"",""assets/stimuli/pncns.png""]",,
,,,,,html-keyboard-response,332,384827,0.0-5.0-0.163,d8mmm1qn,null,+,null,,,,,
,,,,,html-keyboard-response,333,386251,0.0-5.0-1.163,d8mmm1qn,1422,assets/stimuli/pdhob.png,1,random,FALSE,"[""assets/stimuli/fdfyw.png"",""assets/stimuli/pnhnb.png""]",,
,,,,,html-keyboard-response,334,386763,0.0-5.0-0.164,d8mmm1qn,null,+,null,,,,,
,,,,,html-keyboard-response,335,388590,0.0-5.0-1.164,d8mmm1qn,1825,assets/stimuli/fdfow.png,0,random,FALSE,"[""assets/stimuli/pdhob.png"",""assets/stimuli/pncns.png""]",,
,,,,,html-keyboard-response,336,389102,0.0-5.0-0.165,d8mmm1qn,null,+,null,,,,,
,,,,,html-keyboard-response,337,390756,0.0-5.0-1.165,d8mmm1qn,1653,assets/stimuli/fdfyw.png,1,random,FALSE,"[""assets/stimuli/pnhnb.png"",""assets/stimuli/pdhnb.png""]",,
,,,,,html-keyboard-response,338,391270,0.0-5.0-0.166,d8mmm1qn,null,+,null,,,,,
,,,,,html-keyboard-response,339,393107,0.0-5.0-1.166,d8mmm1qn,1834,assets/stimuli/fdfyb.png,0,random,FALSE,"[""assets/stimuli/fnmob.png"",""assets/stimuli/pdhns.png""]",,
,,,,,html-keyboard-response,340,393621,0.0-5.0-0.167,d8mmm1qn,null,+,null,,,,,
,,,,,html-keyboard-response,341,395483,0.0-5.0-1.167,d8mmm1qn,1859,assets/stimuli/fnfyw.png,1,random,FALSE,"[""assets/stimuli/pdhos.png"",""assets/stimuli/pdhns.png""]",,
,,,,,html-keyboard-response,342,395994,0.0-5.0-0.168,d8mmm1qn,null,+,null,,,,,
,,,,,html-keyboard-response,343,397464,0.0-5.0-1.168,d8mmm1qn,1468,assets/stimuli/pncnb.png,1,random,FALSE,"[""assets/stimuli/fdfyw.png"",""assets/stimuli/pdcob.png""]",,
,,,,,html-keyboard-response,344,397970,0.0-5.0-0.169,d8mmm1qn,null,+,null,,,,,
,,,,,html-keyboard-response,345,399460,0.0-5.0-1.169,d8mmm1qn,1487,assets/stimuli/pnhnb.png,1,random,FALSE,"[""assets/stimuli/fnfow.png"",""assets/stimuli/pncob.png""]",,
,,,,,html-keyboard-response,346,399965,0.0-5.0-0.170,d8mmm1qn,null,+,null,,,,,
,,,,,html-keyboard-response,347,401113,0.0-5.0-1.170,d8mmm1qn,1146,assets/stimuli/fdmob.png,0,random,FALSE,"[""assets/stimuli/fnmob.png"",""assets/stimuli/pdhnb.png""]",,
,,,,,html-keyboard-response,348,401615,0.0-5.0-0.171,d8mmm1qn,null,+,null,,,,,
,,,,,html-keyboard-response,349,403446,0.0-5.0-1.171,d8mmm1qn,1829,assets/stimuli/fdfow.png,0,random,FALSE,"[""assets/stimuli/fnfyb.png"",""assets/stimuli/fdmob.png""]",,
,,,,,html-keyboard-response,350,403955,0.0-5.0-0.172,d8mmm1qn,null,+,null,,,,,
,,,,,html-keyboard-response,351,405226,0.0-5.0-1.172,d8mmm1qn,1269,assets/stimuli/pncos.png,0,check,FALSE,"[""assets/stimuli/pncos.png"",""assets/stimuli/pnhnb.png""]",TRUE,
,,,,,html-keyboard-response,352,405734,0.0-5.0-0.173,d8mmm1qn,null,+,null,,,,,
,,,,,html-keyboard-response,353,406868,0.0-5.0-1.173,d8mmm1qn,1132,assets/stimuli/fnmow.png,1,random,FALSE,"[""assets/stimuli/pdhnb.png"",""assets/stimuli/fnfob.png""]",,
,,,,,html-keyboard-response,354,407384,0.0-5.0-0.174,d8mmm1qn,null,+,null,,,,,
,,,,,html-keyboard-response,355,408899,0.0-5.0-1.174,d8mmm1qn,1513,assets/stimuli/pnhob.png,1,random,FALSE,"[""assets/stimuli/fdmyb.png"",""assets/stimuli/fnmob.png""]",,
,,,,,html-keyboard-response,356,409401,0.0-5.0-0.175,d8mmm1qn,null,+,null,,,,,
,,,,,html-keyboard-response,357,410997,0.0-5.0-1.175,d8mmm1qn,1594,assets/stimuli/pdcob.png,1,random,FALSE,"[""assets/stimuli/fdfyw.png"",""assets/stimuli/fdfow.png""]",,
,,,,,html-keyboard-response,358,411504,0.0-5.0-0.176,d8mmm1qn,null,+,null,,,,,
,,,,,html-keyboard-response,359,413389,0.0-5.0-1.176,d8mmm1qn,1883,assets/stimuli/fdmow.png,0,random,FALSE,"[""assets/stimuli/fnfob.png"",""assets/stimuli/pncns.png""]",,
,,,,,html-keyboard-response,360,413897,0.0-5.0-0.177,d8mmm1qn,null,+,null,,,,,
,,,,,html-keyboard-response,361,415960,0.0-5.0-1.177,d8mmm1qn,2061,assets/stimuli/pncns.png,0,random,FALSE,"[""assets/stimuli/pnhns.png"",""assets/stimuli/pdhob.png""]",,
,,,,,html-keyboard-response,362,416471,0.0-5.0-0.178,d8mmm1qn,null,+,null,,,,,
,,,,,html-keyboard-response,363,418164,0.0-5.0-1.178,d8mmm1qn,1691,assets/stimuli/pnhns.png,0,random,FALSE,"[""assets/stimuli/pncos.png"",""assets/stimuli/fdmow.png""]",,
,,,,,html-keyboard-response,364,418679,0.0-5.0-0.179,d8mmm1qn,null,+,null,,,,,
,,,,,html-keyboard-response,365,420306,0.0-5.0-1.179,d8mmm1qn,1626,assets/stimuli/fdfob.png,1,random,FALSE,"[""assets/stimuli/pdcob.png"",""assets/stimuli/fdmob.png""]",,
,,,,,html-keyboard-response,366,420813,0.0-5.0-0.180,d8mmm1qn,null,+,null,,,,,
,,,,,html-keyboard-response,367,422413,0.0-5.0-1.180,d8mmm1qn,1599,assets/stimuli/fnmow.png,1,random,FALSE,"[""assets/stimuli/fnfob.png"",""assets/stimuli/fdmow.png""]",,
,,,,,html-keyboard-response,368,422918,0.0-5.0-0.181,d8mmm1qn,null,+,null,,,,,
,,,,,html-keyboard-response,369,424618,0.0-5.0-1.181,d8mmm1qn,1698,assets/stimuli/pncns.png,1,random,FALSE,"[""assets/stimuli/fnmob.png"",""assets/stimuli/pdcns.png""]",,
,,,,,html-keyboard-response,370,425128,0.0-5.0-0.182,d8mmm1qn,null,+,null,,,,,
,,,,,html-keyboard-response,371,426320,0.0-5.0-1.182,d8mmm1qn,1190,assets/stimuli/pncob.png,0,validation,FALSE,"[""assets/stimuli/pdcos.png"",""assets/stimuli/fnmow.png""]",,
,,,,,html-keyboard-response,372,426826,0.0-5.0-0.183,d8mmm1qn,null,+,null,,,,,
,,,,,html-keyboard-response,373,428511,0.0-5.0-1.183,d8mmm1qn,1684,assets/stimuli/pdhob.png,0,random,FALSE,"[""assets/stimuli/pnhob.png"",""assets/stimuli/pncnb.png""]",,
,,,,,html-keyboard-response,374,429023,0.0-5.0-0.184,d8mmm1qn,null,+,null,,,,,
,,,,,html-keyboard-response,375,430554,0.0-5.0-1.184,d8mmm1qn,1529,assets/stimuli/pnhob.png,1,random,FALSE,"[""assets/stimuli/pdcnb.png"",""assets/stimuli/pnhnb.png""]",,
,,,,,html-keyboard-response,376,431062,0.0-5.0-0.185,d8mmm1qn,null,+,null,,,,,
,,,,,html-keyboard-response,377,432642,0.0-5.0-1.185,d8mmm1qn,1579,assets/stimuli/fdfow.png,1,random,FALSE,"[""assets/stimuli/pdhos.png"",""assets/stimuli/fnfow.png""]",,
,,,,,html-keyboard-response,378,433151,0.0-5.0-0.186,d8mmm1qn,null,+,null,,,,,
,,,,,html-keyboard-response,379,435078,0.0-5.0-1.186,d8mmm1qn,1925,assets/stimuli/pncos.png,0,random,FALSE,"[""assets/stimuli/pdcnb.png"",""assets/stimuli/fnmob.png""]",,
,,,,,html-keyboard-response,380,435591,0.0-5.0-0.187,d8mmm1qn,null,+,null,,,,,
,,,,,html-keyboard-response,381,437244,0.0-5.0-1.187,d8mmm1qn,1651,assets/stimuli/fdmyb.png,1,random,FALSE,"[""assets/stimuli/pdcos.png"",""assets/stimuli/fnfyw.png""]",,
,,,,,html-keyboard-response,382,437750,0.0-5.0-0.188,d8mmm1qn,null,+,null,,,,,
,,,,,html-keyboard-response,383,439561,0.0-5.0-1.188,d8mmm1qn,1808,assets/stimuli/pdhos.png,1,random,FALSE,"[""assets/stimuli/fnmob.png"",""assets/stimuli/fnfob.png""]",,
,,,,,html-keyboard-response,384,440067,0.0-5.0-0.189,d8mmm1qn,null,+,null,,,,,
,,,,,html-keyboard-response,385,441524,0.0-5.0-1.189,d8mmm1qn,1454,assets/stimuli/pncos.png,1,check,FALSE,"[""assets/stimuli/pdhob.png"",""assets/stimuli/pncos.png""]",TRUE,
,,,,,html-keyboard-response,386,442033,0.0-5.0-0.190,d8mmm1qn,null,+,null,,,,,
,,,,,html-keyboard-response,387,444038,0.0-5.0-1.190,d8mmm1qn,2001,assets/stimuli/pnhob.png,0,random,FALSE,"[""assets/stimuli/pdhos.png"",""assets/stimuli/pncns.png""]",,
,,,,,html-keyboard-response,388,444554,0.0-5.0-0.191,d8mmm1qn,null,+,null,,,,,
,,,,,html-keyboard-response,389,446342,0.0-5.0-1.191,d8mmm1qn,1786,assets/stimuli/pnhns.png,0,random,FALSE,"[""assets/stimuli/fnfow.png"",""assets/stimuli/fdmob.png""]",,
,,,,,html-keyboard-response,390,446848,0.0-5.0-0.192,d8mmm1qn,null,+,null,,,,,
,,,,,html-keyboard-response,391,448587,0.0-5.0-1.192,d8mmm1qn,1738,assets/stimuli/pdhns.png,0,random,FALSE,"[""assets/stimuli/fdfow.png"",""assets/stimuli/fnmow.png""]",,
,,,,,html-keyboard-response,392,449095,0.0-5.0-0.193,d8mmm1qn,null,+,null,,,,,
,,,,,html-keyboard-response,393,451027,0.0-5.0-1.193,d8mmm1qn,1931,assets/stimuli/fnfyb.png,1,random,FALSE,"[""assets/stimuli/pdcns.png"",""assets/stimuli/pnhns.png""]",,
,,,,,html-keyboard-response,394,451539,0.0-5.0-0.194,d8mmm1qn,null,+,null,,,,,
,,,,,html-keyboard-response,395,454105,0.0-5.0-1.194,d8mmm1qn,2564,assets/stimuli/pnhns.png,1,random,FALSE,"[""assets/stimuli/fdmow.png"",""assets/stimuli/fdfyw.png""]",,
,,,,,html-keyboard-response,396,454607,0.0-5.0-0.195,d8mmm1qn,null,+,null,,,,,
,,,,,html-keyboard-response,397,456116,0.0-5.0-1.195,d8mmm1qn,1507,assets/stimuli/pdcos.png,1,random,FALSE,"[""assets/stimuli/pdhnb.png"",""assets/stimuli/fdfow.png""]",,
,,,,,html-keyboard-response,398,456629,0.0-5.0-0.196,d8mmm1qn,null,+,null,,,,,
,,,,,html-keyboard-response,399,459001,0.0-5.0-1.196,d8mmm1qn,2370,assets/stimuli/pncos.png,0,random,FALSE,"[""assets/stimuli/fnfyb.png"",""assets/stimuli/fdmyw.png""]",,
,,,,,html-keyboard-response,400,459507,0.0-5.0-0.197,d8mmm1qn,null,+,null,,,,,
,,,,,html-keyboard-response,401,461455,0.0-5.0-1.197,d8mmm1qn,1946,assets/stimuli/pncnb.png,0,random,FALSE,"[""assets/stimuli/fnfob.png"",""assets/stimuli/fdmob.png""]",,
,,,,,html-keyboard-response,402,461968,0.0-5.0-0.198,d8mmm1qn,null,+,null,,,,,
,,,,,html-keyboard-response,403,463854,0.0-5.0-1.198,d8mmm1qn,1884,assets/stimuli/pncnb.png,1,random,FALSE,"[""assets/stimuli/fnfob.png"",""assets/stimuli/fnmyb.png""]",,
,,,,,html-keyboard-response,404,464368,0.0-5.0-0.199,d8mmm1qn,null,+,null,,,,,
,,,,,html-keyboard-response,405,466213,0.0-5.0-1.199,d8mmm1qn,1842,assets/stimuli/fnfob.png,0,random,FALSE,"[""assets/stimuli/pdcob.png"",""assets/stimuli/pdhnb.png""]",,
,,,,,html-keyboard-response,406,466719,0.0-5.0-0.200,d8mmm1qn,null,+,null,,,,,
,,,,,html-keyboard-response,407,468801,0.0-5.0-1.200,d8mmm1qn,2081,assets/stimuli/pnhos.png,0,random,FALSE,"[""assets/stimuli/fnfob.png"",""assets/stimuli/fnmob.png""]",,
,,,,,html-keyboard-response,408,469304,0.0-5.0-0.201,d8mmm1qn,null,+,null,,,,,
,,,,,html-keyboard-response,409,470716,0.0-5.0-1.201,d8mmm1qn,1410,assets/stimuli/fdmob.png,1,validation,FALSE,"[""assets/stimuli/pdcos.png"",""assets/stimuli/fnmob.png""]",,
,,,,,html-keyboard-response,410,471219,0.0-5.0-0.202,d8mmm1qn,null,+,null,,,,,
,,,,,html-keyboard-response,411,473004,0.0-5.0-1.202,d8mmm1qn,1783,assets/stimuli/fdfyw.png,0,random,FALSE,"[""assets/stimuli/fdmyb.png"",""assets/stimuli/fnmow.png""]",,
,,,,,html-keyboard-response,412,473512,0.0-5.0-0.203,d8mmm1qn,null,+,null,,,,,
,,,,,html-keyboard-response,413,474990,0.0-5.0-1.203,d8mmm1qn,1477,assets/stimuli/fnfyb.png,1,check,FALSE,"[""assets/stimuli/fdmyw.png"",""assets/stimuli/fnfyb.png""]",TRUE,
,,,,,html-keyboard-response,414,475502,0.0-5.0-0.204,d8mmm1qn,null,+,null,,,,,
,,,,,html-keyboard-response,415,477230,0.0-5.0-1.204,d8mmm1qn,1727,assets/stimuli/pdhos.png,1,random,FALSE,"[""assets/stimuli/fnfyw.png"",""assets/stimuli/pncob.png""]",,
,,,,,html-keyboard-response,416,477733,0.0-5.0-0.205,d8mmm1qn,null,+,null,,,,,
,,,,,html-keyboard-response,417,479445,0.0-5.0-1.205,d8mmm1qn,1710,assets/stimuli/fdmyb.png,0,random,FALSE,"[""assets/stimuli/fnmyb.png"",""assets/stimuli/pnhns.png""]",,
,,,,,html-keyboard-response,418,479961,0.0-5.0-0.206,d8mmm1qn,null,+,null,,,,,
,,,,,html-keyboard-response,419,481730,0.0-5.0-1.206,d8mmm1qn,1766,assets/stimuli/pnhob.png,1,check,FALSE,"[""assets/stimuli/pnhos.png"",""assets/stimuli/pnhob.png""]",TRUE,
,,,,,html-keyboard-response,420,482246,0.0-5.0-0.207,d8mmm1qn,null,+,null,,,,,
,,,,,html-keyboard-response,421,484530,0.0-5.0-1.207,d8mmm1qn,2282,assets/stimuli/pnhnb.png,1,random,FALSE,"[""assets/stimuli/pdcob.png"",""assets/stimuli/pncns.png""]",,
,,,,,html-keyboard-response,422,485037,0.0-5.0-0.208,d8mmm1qn,null,+,null,,,,,
,,,,,html-keyboard-response,423,487840,0.0-5.0-1.208,d8mmm1qn,2801,assets/stimuli/pdcob.png,0,random,FALSE,"[""assets/stimuli/pncnb.png"",""assets/stimuli/pdcns.png""]",,
,,,,,html-keyboard-response,424,488352,0.0-5.0-0.209,d8mmm1qn,null,+,null,,,,,
,,,,,html-keyboard-response,425,491446,0.0-5.0-1.209,d8mmm1qn,3093,assets/stimuli/fdmob.png,1,random,FALSE,"[""assets/stimuli/pncns.png"",""assets/stimuli/pnhos.png""]",,
,,,,,html-keyboard-response,426,491951,0.0-5.0-0.210,d8mmm1qn,null,+,null,,,,,
,,,,,html-keyboard-response,427,493402,0.0-5.0-1.210,d8mmm1qn,1448,assets/stimuli/pnhns.png,1,random,FALSE,"[""assets/stimuli/fnmow.png"",""assets/stimuli/pnhob.png""]",,
,,,,,html-keyboard-response,428,493911,0.0-5.0-0.211,d8mmm1qn,null,+,null,,,,,
,,,,,html-keyboard-response,429,495253,0.0-5.0-1.211,d8mmm1qn,1339,assets/stimuli/pnhnb.png,0,random,FALSE,"[""assets/stimuli/pncns.png"",""assets/stimuli/fnmyb.png""]",,
,,,,,html-keyboard-response,430,495765,0.0-5.0-0.212,d8mmm1qn,null,+,null,,,,,
,,,,,html-keyboard-response,431,497369,0.0-5.0-1.212,d8mmm1qn,1601,assets/stimuli/pnhns.png,1,random,FALSE,"[""assets/stimuli/fdmyw.png"",""assets/stimuli/pncnb.png""]",,
,,,,,html-keyboard-response,432,497872,0.0-5.0-0.213,d8mmm1qn,null,+,null,,,,,
,,,,,html-keyboard-response,433,499536,0.0-5.0-1.213,d8mmm1qn,1663,assets/stimuli/pdcos.png,0,random,FALSE,"[""assets/stimuli/pdhns.png"",""assets/stimuli/fdfob.png""]",,
,,,,,html-keyboard-response,434,500052,0.0-5.0-0.214,d8mmm1qn,null,+,null,,,,,
,,,,,html-keyboard-response,435,501402,0.0-5.0-1.214,d8mmm1qn,1348,assets/stimuli/pnhos.png,0,validation,FALSE,"[""assets/stimuli/pdhos.png"",""assets/stimuli/fnfob.png""]",,
,,,,,html-keyboard-response,436,501910,0.0-5.0-0.215,d8mmm1qn,null,+,null,,,,,
,,,,,html-keyboard-response,437,503788,0.0-5.0-1.215,d8mmm1qn,1876,assets/stimuli/fnfyb.png,1,random,FALSE,"[""assets/stimuli/pncos.png"",""assets/stimuli/pncnb.png""]",,
,,,,,html-keyboard-response,438,504293,0.0-5.0-0.216,d8mmm1qn,null,+,null,,,,,
,,,,,html-keyboard-response,439,506014,0.0-5.0-1.216,d8mmm1qn,1719,assets/stimuli/pncob.png,0,random,FALSE,"[""assets/stimuli/fnfob.png"",""assets/stimuli/fnmyw.png""]",,
,,,,,html-keyboard-response,440,506524,0.0-5.0-0.217,d8mmm1qn,null,+,null,,,,,
,,,,,html-keyboard-response,441,508483,0.0-5.0-1.217,d8mmm1qn,1957,assets/stimuli/pdhob.png,0,random,FALSE,"[""assets/stimuli/pdhos.png"",""assets/stimuli/pnhns.png""]",,
,,,,,html-keyboard-response,442,508998,0.0-5.0-0.218,d8mmm1qn,null,+,null,,,,,
,,,,,html-keyboard-response,443,510931,0.0-5.0-1.218,d8mmm1qn,1930,assets/stimuli/fnmyb.png,0,random,FALSE,"[""assets/stimuli/pnhns.png"",""assets/stimuli/pnhos.png""]",,
,,,,,html-keyboard-response,444,511434,0.0-5.0-0.219,d8mmm1qn,null,+,null,,,,,
,,,,,html-keyboard-response,445,513085,0.0-5.0-1.219,d8mmm1qn,1649,assets/stimuli/fdmyw.png,0,random,FALSE,"[""assets/stimuli/fnfyb.png"",""assets/stimuli/pncns.png""]",,
,,,,,html-keyboard-response,446,513588,0.0-5.0-0.220,d8mmm1qn,null,+,null,,,,,
,,,,,html-keyboard-response,447,515083,0.0-5.0-1.220,d8mmm1qn,1494,assets/stimuli/fdfob.png,1,random,FALSE,"[""assets/stimuli/pncnb.png"",""assets/stimuli/fnfyw.png""]",,
,,,,,html-keyboard-response,448,515595,0.0-5.0-0.221,d8mmm1qn,null,+,null,,,,,
,,,,,html-keyboard-response,449,517455,0.0-5.0-1.221,d8mmm1qn,1858,assets/stimuli/fnfow.png,1,random,FALSE,"[""assets/stimuli/pdhnb.png"",""assets/stimuli/fnmyb.png""]",,
,,,,,html-keyboard-response,450,517962,0.0-5.0-0.222,d8mmm1qn,null,+,null,,,,,
,,,,,html-keyboard-response,451,520838,0.0-5.0-1.222,d8mmm1qn,2875,assets/stimuli/pdhnb.png,1,random,FALSE,"[""assets/stimuli/fdfyb.png"",""assets/stimuli/fdfyw.png""]",,
,,,,,html-keyboard-response,452,521352,0.0-5.0-0.223,d8mmm1qn,null,+,null,,,,,
,,,,,html-keyboard-response,453,523252,0.0-5.0-1.223,d8mmm1qn,1897,assets/stimuli/pncns.png,1,random,FALSE,"[""assets/stimuli/fdmob.png"",""assets/stimuli/pdhob.png""]",,
,,,,,html-keyboard-response,454,523754,0.0-5.0-0.224,d8mmm1qn,null,+,null,,,,,
,,,,,html-keyboard-response,455,525113,0.0-5.0-1.224,d8mmm1qn,1358,assets/stimuli/fnfyb.png,1,random,FALSE,"[""assets/stimuli/pdhos.png"",""assets/stimuli/fdmyw.png""]",,
,,,,,html-keyboard-response,456,525624,0.0-5.0-0.225,d8mmm1qn,null,+,null,,,,,
,,,,,html-keyboard-response,457,527039,0.0-5.0-1.225,d8mmm1qn,1413,assets/stimuli/fnfyw.png,1,random,FALSE,"[""assets/stimuli/pncnb.png"",""assets/stimuli/fnfob.png""]",,
,,,,,html-keyboard-response,458,527551,0.0-5.0-0.226,d8mmm1qn,null,+,null,,,,,
,,,,,html-keyboard-response,459,529348,0.0-5.0-1.226,d8mmm1qn,1795,assets/stimuli/pncns.png,0,random,FALSE,"[""assets/stimuli/pdcnb.png"",""assets/stimuli/fdmob.png""]",,
,,,,,html-keyboard-response,460,529858,0.0-5.0-0.227,d8mmm1qn,null,+,null,,,,,
,,,,,html-keyboard-response,461,531198,0.0-5.0-1.227,d8mmm1qn,1338,assets/stimuli/pnhns.png,1,random,FALSE,"[""assets/stimuli/fnmyw.png"",""assets/stimuli/pdcob.png""]",,
,,,,,html-keyboard-response,462,531708,0.0-5.0-0.228,d8mmm1qn,null,+,null,,,,,
,,,,,html-keyboard-response,463,533356,0.0-5.0-1.228,d8mmm1qn,1646,assets/stimuli/pdhob.png,1,validation,FALSE,"[""assets/stimuli/fnmob.png"",""assets/stimuli/fdfow.png""]",,
,,,,,html-keyboard-response,464,533858,0.0-5.0-0.229,d8mmm1qn,null,+,null,,,,,
,,,,,html-keyboard-response,465,535469,0.0-5.0-1.229,d8mmm1qn,1608,assets/stimuli/pnhos.png,1,random,FALSE,"[""assets/stimuli/fdfyw.png"",""assets/stimuli/fnfow.png""]",,
,,,,,html-button-response,466,537927,0.0-6.0,d8mmm1qn,2456,"<p>Awesome!</p> <p>For this last part of the experiment, please provide us with information about yourself.</p>",0,,,,,
,,,,,survey-multi-select,467,544709,0.0-7.0,d8mmm1qn,5746,,"{""race_eth"":[""White - For example, German, Irish""]}",,,,,[0]
,,,,,survey-text,468,551217,0.0-8.0,d8mmm1qn,6492,,"{""age"":""55"",""gender"":""Male""}",,,,,
